Folder: multimodal-ldrd/nmf-with-peak-shifting

Note: README.md
# Multi-modal Imaging + AI LDRD

AI components of a collaboration on using multi-modal imaging, AI, and modeling to study liquid structure

## Installation

The environment needed to use these notebooks is described in `environment.yml`, and can be created with Miniconda:

```shell
conda env create --file environment.yml
```

## Project Support
This material is based upon work supported by Laboratory Directed Research and Development (LDRD) funding from Argonne National Laboratory, provided by the Director, Office of Science, of the U.S. Department of Energy under Contract No. DE-AC02-06CH11357.

File: xrd-multimodal-segmentations.csv
two_theta,component-0,component-1,component-2,component-3,component-4,component-5,component-6,component-7
0.8,0.0315137,0.0266375,-0.0,-0.0,0.189189,-0.0,0.233643,0.315836
0.87232,-0.0,-0.0,-0.0,-0.0,0.207311,-0.0,-0.0,-0.0
0.94464,-0.0,-0.0,-0.0,-0.0,0.218016,-0.0,-0.0,-0.0
1.01696,-0.0,-0.0,-0.0,-0.0,0.224577,-0.0,-0.0,-0.0
1.08928,-0.0,-0.0,-0.0,-0.0,0.231479,-0.0,-0.0,-0.0
1.1616,-0.0,-0.0,-0.0,-0.0,0.238401,-0.0,-0.0,-0.0
1.23392,-0.0,-0.0,-0.0,-0.0,0.245773,-0.0,-0.0,-0.0
1.30624,-0.0,0.00154404,-0.0,-0.0,0.259567,-0.0,-0.0,-0.0
1.37856,-0.0,0.00172847,-0.0,-0.0,0.278293,-0.0,-0.0,-0.0
1.45088,-0.0,-0.0,-0.0,-0.0,0.280231,-0.0,-0.0,5.41592e-06
1.5232,-0.0,-0.0,-0.0,0.0146418,0.284208,-0.0,-0.0,0.0105576
1.59552,-0.0,-0.0,-0.0,-0.0,0.29443,-0.0,-0.0,0.008898496
1.66784,-0.0,-0.0,-0.0,-0.0,0.310034,-0.0,-0.0,0.0521309
1.74016,-0.0,-0.0,-0.0,-0.0,0.328842,-0.0,-0.0,0.136599
1.81248,-0.0,-0.0,-0.0,-0.0,0.349258,-0.0,-0.0,0.02778559
1.8848,-0.0,-0.0,-0.0,-0.0,0.373996,-0.0,-0.0,-0.0
1.95712,-0.0,-0.0,-0.0,-0.0,0.4065436,-0.0,-0.0,-0.0
2.02944,-0.0,-0.0,-0.0,-0.0,0.451843,-0.0,-0.0,-0.0
2.10176,-0.0,-0.0,-0.0,-0.0,0.5007227,-0.0,-0.0,-0.0
2.17408,-0.0,6.103138e-06,-0.0,-0.0,0.5551203,-0.0,-0.0,-0.0
2.2464,-0.0,0.006248648,-0.0,-0.0,0.6306597,-0.0,-0.0,-0.0
2.31872,-0.0,0.00503543,-0.0,-0.0,0.68552,-0.0,-0.0,-0.0
2.39104,-0.0,0.0284791,-0.0,0.0337457,0.720811,-0.0,2.72234e-06,2.28866e-05
2.46336,-0.0,0.0346109,-0.0,0.172966,0.7352107,-0.0,-0.0,-0.0
2.53568,-0.0,0.0419512,-0.0,0.213159,0.7240842,-0.0,-0.0,0.08092234
2.608,0.0409567,0.05915767,-0.0,0.361009,0.8215538,-0.0,-0.0,0.117773
2.68032,0.312482,-0.0,-0.0,0.0007926562,1.29037,-0.0,-0.0,0.0339913
2.75264,0.09629651,0.117222,-0.0,-0.0,1.28116,-0.0,-0.0,-0.0
2.82496,-0.0,0.109721,-0.0,-0.0,0.601033,-0.0,-0.0,0.0237097
2.89728,-0.0,0.0323622,-0.0,0.019164,0.319293,-0.0,-0.0,0.130095
2.9696,0.0003776956,0.0155148,-0.0,0.111065,0.234493,-0.0,-0.0,0.147438
3.04192,0.0146691,0.0057676,-0.0,0.2522049,0.193621,-0.0,-0.0,0.176638
3.11424,0.0073627,0.00491848,-0.0,0.252327,0.169488,-0.0,-0.0,0.19586
3.18656,0.0154167,0.0037886,-0.0,0.172837,0.154234,-0.0,-0.0,0.20307
3.25888,0.01773,-0.0,-0.0,0.216424,0.142558,-0.0,-0.0,0.149637
3.3312,0.00487757,0.004012718,-0.0,0.144466,0.137295,-0.0,-0.0,0.149113
3.40352,0.002951504,0.007941396,-0.0,0.315148,0.132191,-0.0,-0.0,0.12977
3.47584,0.00812935,0.00565217,-0.0,0.465025,0.129505,-0.0,-0.0,0.0208506
3.54816,0.00700746,0.00303981,-0.0,0.279722,0.131232,-0.0,-0.0,0.141755
3.62048,0.00306815,0.00429147,-0.0,0.2944412,0.132022,-0.0,-0.0,0.130053
3.6928,0.00358903,0.0075217,-0.0,0.295784,0.131915,-0.0,-0.0,0.155675
3.76512,0.00725682,0.005298378,-0.0,0.244633,0.132997,-0.0,-0.0,0.178835
3.83744,0.0138029,0.00212943,-0.0,0.201182,0.131864,-0.0,-0.0,0.206893
3.90976,0.017161,-0.0,-0.0,0.246085,0.131706,-0.0,-0.0,0.221035
3.98208,0.02307307,-0.0,-0.0,0.363857,0.132834,-0.0,-0.0,0.3429977
4.0544,0.02522589,-0.0,-0.0,0.502837,0.135124,-0.0,-0.0,0.2869407
4.12672,0.0247942,-0.0,-0.0,0.481376,0.142043,-0.0,-0.0,0.3563521
4.19904,0.0290653,-0.0,-0.0,0.673943,0.147463,-0.0,-0.0,0.248936
4.27136,0.0315275,-0.0,-0.0,0.583171,0.166109,-0.0,-0.0,0.371046
4.34368,0.0339658,0.00200844,-0.0,0.6518535,0.18222,-0.0,-0.0,0.696106
4.416,0.03031945,0.0003521055,-0.0,0.6899706,0.211918,-0.0,-0.0,0.617346
4.48832,-0.0,0.01412599,-0.0,0.315024,0.209878,-0.0,-0.0,0.63594
4.56064,0.008488443,0.0121335,-0.0,0.1962411,0.2018544,-0.0,-0.0,0.589827
4.63296,0.05197142,1.72154e-05,-0.0,0.478061,0.221156,-0.0,-0.0,0.495914
4.70528,0.09801779,-0.0,-0.0,1.19732,0.241475,-0.0,0.1662369,0.0336984
4.7776,0.104614,-0.0,-0.0,0.832726,0.2640674,-0.0,-0.0,0.1341101
4.84992,0.05325783,-0.0,-0.0,0.731483,0.277769,-0.0,7.554258e-06,0.341326
4.92224,0.0553529,1.11896e-05,-0.0,1.39129,0.2684618,-0.0,1.642207,0.0163343
4.99456,0.06520758,-0.0,-0.0,1.57478,0.270633,-0.0,0.1664219,-0.0
5.06688,0.147612,-0.0,-0.0,1.2483,0.3809321,-0.0,-0.0,0.299596
5.1392,-0.0,0.0209647,-0.0,2.00758,0.449135,-0.0,0.402157,0.644897
5.21152,-0.0,0.0353821,-0.0,1.6301,0.345966,-0.0,-0.0,0.667018
5.28384,0.016863,0.0332775,-0.0,0.605931,0.31834,-0.0,-0.0,0.869493
5.35616,0.05465784,0.008936329,-0.0,0.587424,0.329324,-0.0,-0.0,0.5719123
5.42848,0.05872305,0.00364596,-0.0,0.476376,0.354764,-0.0,-0.0,0.5352145
5.5008,0.0523099,0.0125418,-0.0,0.269861,0.376362,-0.0,-0.0,0.613366
5.57312,0.0548603,0.0147343,-0.0,0.2594037,0.394303,-0.0,-0.0,0.5961336
5.64544,0.0550878,0.0144343,-0.0,0.327712,0.412946,-0.0,-0.0,0.5065415
5.71776,0.0517947,0.0168626,-0.0,0.265954,0.435723,-0.0,-0.0,0.4754478
5.79008,0.046745,0.0229424,-0.0,0.1551213,0.4578535,-0.0,-0.0,0.500683
5.8624,0.0674417,0.0229338,-0.0,0.237684,0.476386,-0.0,-0.0,0.433639
5.93472,0.08541062,0.0123211,-0.0,0.487982,0.490294,-0.0,-0.0,0.323406
6.00704,0.0650414,0.013908,-0.0,0.7248795,0.485296,-0.0,-0.0,0.137454
6.07936,0.0433654,0.0202401,-0.0,0.3906206,0.4777929,-0.0,-0.0,0.2597046
6.15168,0.03364743,0.0266398,-0.0,0.231758,0.469555,-0.0,-0.0,0.3693603
6.224,0.0290782,0.0274594,-0.0,0.203539,0.4534476,-0.0,-0.0,0.385463
6.29632,0.0502531,0.02155,-0.0,0.2230762,0.4336546,-0.0,-0.0,0.369822
6.36864,0.05646197,0.0109327,-0.0,0.433477,0.413858,-0.0,-0.0,0.214507
6.44096,0.0533441,0.009450148,-0.0,0.499986,0.3898034,-0.0,-0.0,0.138831
6.51328,0.05136652,0.007554414,-0.0,0.2999684,0.373056,-0.0,-0.0,0.293631
6.5856,0.0454887,0.005386435,-0.0,0.316524,0.353439,-0.0,-0.0,0.315746
6.65792,0.03250149,0.0109405,-0.0,0.296051,0.337967,-0.0,-0.0,0.306204
6.73024,0.0245002,0.014354,-0.0,0.320189,0.323359,-0.0,-0.0,0.3377518
6.80256,0.009385365,0.0187402,-0.0,0.4047444,0.314652,-0.0,9.348057e-06,0.272972
6.87488,0.0324557,0.0231804,-0.0,0.8331016,0.304104,-0.0,1.04356,0.0225167
6.9472,0.06830886,-0.0,-0.0,1.14666,0.275333,-0.0,2.50621,-0.0
7.01952,0.0544836,-0.0,-0.0,1.13112,0.260209,-0.0,0.837286,-0.0
7.09184,0.0501403,0.004529883,-0.0,0.781854,0.264307,-0.0,-0.0,0.0109635
7.16416,0.09374121,-0.0,-0.0,0.4787924,0.298875,-0.0,-0.0,0.226524
7.23648,0.08022431,-0.0,-0.0,0.259964,0.3461475,-0.0,-0.0,0.515693
7.3088,-0.0,0.0279408,-0.0,0.297251,0.296915,-0.0,-0.0,0.6942908
7.38112,0.0110512,0.0212561,-0.0,0.3151,0.249877,-0.0,-0.0,0.369823
7.45344,0.0338737,0.00462529,-0.0,0.431204,0.227399,-0.0,-0.0,0.2271781
7.52576,0.0459732,-0.0,-0.0,0.807804,0.214976,-0.0,0.148358,0.0229957
7.59808,0.0402799,-0.0,-0.0,0.7670952,0.208374,-0.0,-0.0,0.00629329
7.6704,0.03476844,-0.0,-0.0,0.408671,0.206301,-0.0,-0.0,0.219667
7.74272,0.0275565,0.00162699,-0.0,0.366742,0.206332,-0.0,-0.0,0.2890605
7.81504,0.0205366,0.00588643,-0.0,0.427193,0.201828,-0.0,-0.0,0.314292
7.88736,0.0163037,0.008661771,-0.0,0.459468,0.1961013,-0.0,-0.0,0.311407
7.95968,0.0247196,0.0055004,-0.0,0.482239,0.190572,-0.0,-0.0,0.24878
8.032,0.0294489,0.002060678,-0.0,0.4207676,0.18749,-0.0,-0.0,0.26702
8.10432,0.039982,-0.0,-0.0,0.4450665,0.188273,-0.0,-0.0,0.2550893
8.17664,0.0415014,-0.0,-0.0,0.506122,0.1895756,-0.0,-0.0,0.179686
8.24896,0.0249922,-0.0,-0.0,0.414921,0.190231,-0.0,-0.0,0.145633
8.32128,0.0105981,0.007981045,-0.0,0.328423,0.1849004,-0.0,-0.0,0.18642
8.3936,0.02137142,0.00835202,-0.0,0.520355,0.1795696,-0.0,-0.0,0.119389
8.46592,0.0388469,-0.0,-0.0,0.6627022,0.18294,-0.0,-0.0,0.0359608
8.53824,0.0158273,0.00308848,-0.0,0.451951,0.177432,-0.0,-0.0,0.198565
8.61056,0.0171183,0.009304578,-0.0,0.2977845,0.17287,-0.0,-0.0,0.281805
8.68288,0.02756335,0.0015522,-0.0,0.301739,0.163023,-0.0,-0.0,0.244204
8.7552,0.03355341,-0.0,-0.0,0.367812,0.160952,-0.0,-0.0,0.165808
8.82752,0.0505199,-0.0,-0.0,0.3638659,0.17728,-0.0,-0.0,0.149721
8.89984,0.029253,-0.0,-0.0,0.367423,0.17116,-0.0,-0.0,0.240836
8.97216,0.007368996,0.0109114,-0.0,0.360333,0.164582,-0.0,-0.0,0.225237
9.04448,0.022031,0.004195375,-0.0,0.2976055,0.153627,-0.0,-0.0,0.1700292
9.1168,0.0210703,0.0002795475,-0.0,0.2903995,0.14961,-0.0,-0.0,0.177417
9.18912,0.009922448,0.004351573,-0.0,0.251464,0.15029,-0.0,-0.0,0.188665
9.26144,0.0134653,0.00567829,-0.0,0.2266713,0.1503553,-0.0,-0.0,0.184097
9.33376,0.0222316,0.0014059,-0.0,0.2356,0.1495066,-0.0,-0.0,0.191852
9.40608,0.026421,-0.0,-0.0,0.2674033,0.146348,-0.0,-0.0,0.182606
9.4784,0.0294576,-0.0,-0.0,0.287239,0.143758,-0.0,-0.0,0.1587737
9.55072,0.0293441,-0.0,-0.0,0.279967,0.1429957,-0.0,-0.0,0.1458063
9.62304,0.0273335,-0.0,-0.0,0.289838,0.141648,-0.0,-0.0,0.150342
9.69536,0.0228155,-0.0,-0.0,0.3178675,0.1426894,-0.0,-0.0,0.139296
9.76768,0.0235511,0.0002785892,-0.0,0.374603,0.14072,-0.0,-0.0,0.123496
9.84,0.021601,0.001170775,-0.0,0.44117,0.139831,-0.0,-0.0,0.0944478
9.91232,0.0214595,0.000333597,-0.0,0.4004123,0.1385318,-0.0,-0.0,0.1019837
9.98464,0.330701,-0.0,-0.0,0.303801,0.162344,-0.0,-0.0,0.0500356

File: xrd-segmentations.csv
two_theta,component-0,component-1,component-2,component-3,component-4,component-5,component-6,component-7
0.8,-0.0,0.7698304,0.09338219,-0.0,0.6904225,0.0572512,-0.0,-0.0
0.87232,-0.0,-0.0,0.3487194,-0.0,0.75711,0.00163611,-0.0,0.007191532
0.94464,-0.0,-0.0,0.383654,-0.0,0.7944143,0.0001227754,-0.0,0.009286735
1.01696,-0.0,-0.0,0.374952,-0.0,0.8178255,0.000242494,-0.0,0.009385851
1.08928,-0.0,-0.0,0.369519,-0.0,0.844087,0.00116251,-0.0,0.009909898
1.1616,-0.0,-0.0,0.371296,-0.0,0.870883,0.002222452,-0.0,0.01034983
1.23392,-0.0,-0.0,0.338802,-0.0,0.901017,0.00548646,-0.0,0.004721912
1.30624,-0.0,0.00252184,0.490799,-0.0,0.94653,0.00778524,-0.0,0.005165711
1.37856,-0.0,0.09284502,0.7211676,-0.0,0.9915816,0.0149941,-0.0,0.0220962
1.45088,-0.0,-0.0,0.529105,-0.0,0.9953451,0.00990043,-0.0,0.06437275
1.5232,-0.0,-0.0,0.445235,-0.0,1.02106,0.057326,-0.0,0.039838
1.59552,-0.0,-0.0,0.433524,-0.0,1.07025,0.000144121,-0.0,0.046697
1.66784,-0.0,-0.0,0.420467,-0.0,1.12384,-0.0,-0.0,0.11447
1.74016,-0.0,-0.0,0.362055,-0.0,1.21619,-0.0,-0.0,0.08181067
1.81248,-0.0,-0.0,0.449211,-0.0,1.28008,-0.0,-0.0,0.014843
1.8848,-0.0,-0.0,0.475331,-0.0,1.36941,0.0122138,-0.0,-0.0
1.95712,-0.0,-0.0,0.4583297,-0.0,1.49603,0.0207635,-0.0,-0.0
2.02944,-0.0,-0.0,0.3909221,-0.0,1.67149,-0.0,-0.0,-0.0
2.10176,-0.0,-0.0,0.338371,-0.0,1.85828,-0.0,-0.0,-0.0
2.17408,-0.0,-0.0,0.424925,-0.0,2.077978,-0.0,-0.0,-0.0
2.2464,-0.0,0.2159308,0.819908,-0.0,2.31865,-0.0,-0.0,-0.0
2.31872,-0.0,0.09505723,0.09253835,-0.0,2.56044,0.0137222,-0.0,-0.0
2.39104,-0.0,0.1212209,-0.0,-0.0,2.72777,0.136891,-0.0,0.04625614
2.46336,-0.0,0.250139,-0.0,-0.0,2.786058,0.316114,-0.0,0.158505
2.53568,-0.0,0.285208,-0.0,-0.0,2.73136,0.2635909,-0.0,0.3676535
2.608,-0.0,0.5660192,-0.0,-0.0,3.05529,0.4810688,-0.0,0.321004
2.68032,-0.0,1.9318,0.864723,0.09760205,4.810045,0.6006024,-0.0,0.212135
2.75264,-0.0,2.79023,0.659704,0.06601203,4.864343,0.4927312,-0.0,0.2266202
2.82496,-0.0,0.551062,-0.0,-0.0,2.29874,0.1855285,-0.0,0.239882
2.89728,-0.0,1.16723e-05,-0.0,-0.0,1.2139,0.0695628,-0.0,0.226802
2.9696,-0.0,0.008171728,2.89698e-05,-0.0,0.8889916,0.0923343,-0.0,0.335066
3.04192,-0.0,-0.0,0.000158164,-0.0,0.7384414,0.283167,-0.0,0.4366964
3.11424,-0.0,-0.0,-0.0,-0.0,0.649791,0.194683,-0.0,0.429638
3.18656,-0.0,-0.0,3.04396e-05,-0.0,0.5884027,0.129166,-0.0,0.371174
3.25888,-0.0,-0.0,0.00117192,-0.0,0.550646,0.243099,-0.0,0.3060716
3.3312,-0.0,0.0190265,-0.0,-0.0,0.523477,0.0939489,-0.0,0.3209436
3.40352,-0.0,-0.0,-0.0,-0.0,0.5029868,0.392298,-0.0,0.3636997
3.47584,-0.0,-0.0,-0.0,-0.0,0.4995952,0.5342145,-0.0,0.388282
3.54816,-0.0,-0.0,-0.0,-0.0,0.502705,0.262789,-0.0,0.370419
3.62048,-0.0,-0.0,-0.0,-0.0,0.5068676,0.277005,-0.0,0.3873328
3.6928,-0.0,0.0282073,-0.0,-0.0,0.5040423,0.2933148,-0.0,0.413052
3.76512,-0.0,6.59718e-05,-0.0,-0.0,0.509605,0.179453,-0.0,0.405723
3.83744,-0.0,-0.0,3.33619e-06,-0.0,0.5017182,0.167598,-0.0,0.426573
3.90976,-0.0,-0.0,0.0113687,-0.0,0.49983,0.158144,-0.0,0.5509814
3.98208,-0.0,-0.0,0.04396842,-0.0,0.4957519,0.2693214,-0.0,0.7754
4.0544,-0.0,-0.0,0.02484427,-0.0,0.518819,0.450843,-0.0,0.731416
4.12672,-0.0,-0.0,6.396591e-05,-0.0,0.5482548,0.413246,-0.0,0.8176933
4.19904,-0.0,-0.0,-0.0,-0.0,0.578394,0.75371,-0.0,0.788204
4.27136,-0.0,0.03833608,0.000141763,-0.0,0.645071,0.415509,-0.0,1.107192
4.34368,-0.0,0.0220944,-0.0,-0.0,0.7044866,0.468453,-0.0,1.383581
4.416,-0.0,0.144064,9.103347e-06,-0.0,0.8254477,0.5579453,-0.0,1.17449
4.48832,-0.0,0.00277415,-0.0,-0.0,0.791162,-0.0,-0.0,0.905873
4.56064,-0.0,-0.0,-0.0,-0.0,0.771047,-0.0,-0.0,0.8552304
4.63296,-0.0,-0.0,0.0331873,-0.0,0.841112,0.482516,-0.0,0.9133491
4.70528,-0.0,-0.0,0.33847,-0.0,0.9374993,1.714775,-0.0,0.928479
4.7776,-0.0,0.3103949,0.574661,-0.0,0.982309,0.9492734,-0.0,0.9791122
4.84992,-0.0,0.381101,0.03556158,-0.0,1.05772,0.8721082,-0.0,0.9239078
4.92224,-0.0,0.328414,-0.0,-0.0,1.05587,2.02079,-0.0,1.00457
4.99456,-0.0,0.205731,-0.0,-0.0,1.06042,2.14698,-0.0,1.16346
5.06688,-0.0,0.8445011,0.353686,-0.0,1.4426,1.38044,-0.0,1.72052
5.1392,-0.0,0.8335713,-0.0,-0.0,1.746365,2.15766,-0.0,2.2978
5.21152,0.2836144,-0.0,-0.0,-0.0,1.34827,1.36111,-0.0,1.8574
5.28384,0.0748512,0.04179316,-0.0,-0.0,1.21764,0.277883,-0.0,1.28127
5.35616,-0.0,0.134374,-0.0,-0.0,1.26193,0.5487486,-0.0,1.09866
5.42848,-0.0,0.217966,-0.0,-0.0,1.36143,0.357146,-0.0,1.03152
5.5008,-0.0,0.308261,-0.0,-0.0,1.43341,0.09013513,-0.0,0.993203
5.57312,-0.0,0.397292,-0.0,-0.0,1.49705,0.1279913,-0.0,0.9297789
5.64544,-0.0,0.3878044,-0.0,-0.0,1.57135,0.2779008,-0.0,0.8654773
5.71776,-0.0,0.394259,-0.0,-0.0,1.654614,0.163463,-0.0,0.8095145
5.79008,-0.0,0.430101,-0.0,-0.0,1.73308,0.03607552,-0.0,0.7599818
5.8624,-0.0,0.47186,-0.0,-0.0,1.8064,0.238914,-0.0,0.754937
5.93472,-0.0,0.5084733,-0.0,-0.0,1.87343,0.689348,-0.0,0.763724
6.00704,-0.0,0.3772562,-0.0,-0.0,1.86387,0.9990159,-0.0,0.70226
6.07936,-0.0,0.375711,-0.0,-0.0,1.82213,0.373829,-0.0,0.6728825
6.15168,-0.0,0.3640538,-0.0,-0.0,1.78213,0.1721905,-0.0,0.6589669
6.224,-0.0,0.341328,-0.0,-0.0,1.72001,0.12186,-0.0,0.672082
6.29632,-0.0,0.366284,-0.0,-0.0,1.64696,0.217889,-0.0,0.6241891
6.36864,-0.0,0.359826,1.40206e-05,-0.0,1.58239,0.6330685,-0.0,0.575554
6.44096,-0.0,0.243673,-0.0,-0.0,1.49409,0.636934,-0.0,0.606044
6.51328,-0.0,0.251576,2.6475e-05,-0.0,1.42645,0.295162,-0.0,0.655669
6.5856,-0.0,0.189904,2.24317e-05,-0.0,1.35294,0.352194,-0.0,0.631164
6.65792,-0.0,0.182009,-0.0,-0.0,1.28982,0.264353,-0.0,0.646398
6.73024,-0.0,0.165864,-0.0,-0.0,1.23349,0.2834681,-0.0,0.65496
6.80256,-0.0,0.226096,-0.0,-0.0,1.19588,0.4329782,-0.0,0.5810702
6.87488,-0.0,0.164198,-0.0,-0.0,1.17225,1.112387,-0.0,0.6139355
6.9472,-0.0,0.0125054,-0.0,-0.0,1.11879,2.02311,-0.0,0.6393797
7.01952,-0.0,1.62573e-05,-0.0,-0.0,1.05624,1.83786,-0.0,0.6474731
7.09184,-0.0,0.0573403,-0.0,-0.0,1.02575,0.8876173,-0.0,0.683345
7.16416,-0.0,0.230109,0.192158,-0.0,1.13371,0.5655936,-0.0,0.7674235
7.23648,-0.0,0.7043457,0.43895,-0.0,1.27306,0.110178,-0.0,1.13674
7.3088,-0.0,0.238553,-0.0,-0.0,1.14006,0.03645169,-0.0,0.8959085
7.38112,-0.0,0.06366075,-0.0,-0.0,0.951056,0.247408,-0.0,0.5980582
7.45344,-0.0,0.129197,3.09529e-05,-0.0,0.8741448,0.508276,-0.0,0.5780305
7.52576,-0.0,0.0607955,-0.0,-0.0,0.8434,1.12126,-0.0,0.6007523
7.59808,-0.0,0.019161,4.79723e-05,-0.0,0.81576,0.9288733,-0.0,0.6172246
7.6704,-0.0,0.07051215,-0.0,-0.0,0.797249,0.3842795,-0.0,0.610128
7.74272,-0.0,0.09172997,8.030347e-06,-0.0,0.7947383,0.345258,-0.0,0.6655566
7.81504,-0.0,0.06156279,-0.0,-0.0,0.7773376,0.3791106,-0.0,0.7248182
7.88736,-0.0,0.0338075,-0.0,-0.0,0.756502,0.431569,-0.0,0.6833476
7.95968,-0.0,0.0110232,-0.0,-0.0,0.73766,0.499671,-0.0,0.656853
8.032,-0.0,0.04016219,-0.0,-0.0,0.7243954,0.4007269,-0.0,0.648381
8.10432,-0.0,0.06766152,0.00765297,-0.0,0.729584,0.489655,-0.0,0.6315761
8.17664,-0.0,0.08525514,0.03593302,-0.0,0.7337786,0.622266,-0.0,0.5557312
8.24896,-0.0,0.07883858,-0.0,-0.0,0.737871,0.45492,-0.0,0.477287
8.32128,-0.0,0.08671414,-0.0,-0.0,0.707563,0.3130414,-0.0,0.4805774
8.3936,-0.0,0.08937726,-0.0,-0.0,0.691065,0.656211,-0.0,0.507432
8.46592,-0.0,0.0949549,0.0001021296,-0.0,0.7151009,0.839187,-0.0,0.572904
8.53824,-0.0,0.1094806,-0.0,-0.0,0.685486,0.4146909,-0.0,0.6058897
8.61056,-0.0,0.08860973,-0.0,-0.0,0.663051,0.226486,-0.0,0.5542771
8.68288,-0.0,0.0699768,2.56193e-05,-0.0,0.6284553,0.310736,-0.0,0.499569
8.7552,-0.0,0.07076359,9.92625e-05,-0.0,0.6217394,0.435125,-0.0,0.466777
8.82752,-0.0,0.174467,0.1842959,-0.0,0.6707718,0.435271,-0.0,0.532019
8.89984,-0.0,0.198509,0.01948379,-0.0,0.654329,0.377141,-0.0,0.6066923
8.97216,-0.0,0.08797946,-0.0,-0.0,0.6322041,0.3315,-0.0,0.471858
9.04448,-0.0,0.0441981,-0.0,-0.0,0.591762,0.3129506,-0.0,0.436641
9.1168,-0.0,0.0440779,-0.0,-0.0,0.5771927,0.296837,-0.0,0.440148
9.18912,-0.0,0.04294451,-0.0,-0.0,0.5763757,0.220055,-0.0,0.404509
9.26144,-0.0,0.0320795,-0.0,-0.0,0.575478,0.1910136,-0.0,0.4078725
9.33376,-0.0,0.0484485,-0.0,-0.0,0.574512,0.22759,-0.0,0.4246401
9.40608,-0.0,0.06744323,1.27583e-05,-0.0,0.564391,0.285266,-0.0,0.428364
9.4784,-0.0,0.06716511,0.0257506,-0.0,0.55435,0.323755,-0.0,0.406465
9.55072,-0.0,0.08176567,0.0373876,-0.0,0.549242,0.316771,-0.0,0.402533
9.62304,-0.0,0.07642128,0.00485947,-0.0,0.546338,0.3295316,-0.0,0.4063946
9.69536,-0.0,0.07082832,-0.0,-0.0,0.551393,0.3570253,-0.0,0.409518
9.76768,-0.0,0.06530789,-0.0,-0.0,0.5448281,0.443405,-0.0,0.430479
9.84,-0.0,0.0423027,-0.0,-0.0,0.544291,0.5327535,-0.0,0.430812
9.91232,-0.0,0.04352931,-0.0,-0.0,0.540242,0.4696089,-0.0,0.438001
9.98464,-0.0,0.0195652,0.90876,-0.0,0.561537,0.484699,-0.0,0.5483656